File: data/xrd_Cu_spectra.csv
40.0029,1040
40.0719,988
40.1408,1018
40.2097,953
40.2787,1022
40.3476,1012
40.4165,975
40.4855,1007
40.5544,1051
40.6233,979
40.6923,1008
40.7612,1020
40.8301,1013
40.8991,1019
40.968,1073
41.0369,1114
41.1059,1043
41.1748,1086
41.2437,1199
41.3127,1132
41.3816,1106
41.4505,1033
41.5195,1095
41.5884,1068
41.6573,1055
41.7263,1128
41.7952,1111
41.8641,1163
41.9331,1098
42.002,1232
42.0709,1179
42.1399,1218
42.2088,1185
42.2777,1291
42.3467,1175
42.4156,1224
42.4845,1166
42.5535,1172
42.6224,1293
42.6913,1228
42.7603,1205
42.8292,1223
42.8982,1336
42.9671,1565
43.036,1957
43.105,3182
43.1739,7536
43.2428,25668
43.3118,16277
43.3807,14391
43.4496,3982
43.5186,1957
43.5875,1506
43.6564,1261
43.7254,1245
43.7943,1227
43.8632,1149
43.9322,1153
44.0011,1189
44.07,1196
44.139,1148
44.2079,1140
44.2768,1152
44.3458,1156
44.4147,1104
44.4836,1079
44.5526,1181
44.6215,1148
44.6904,1149
44.7594,1123
44.8283,1188
44.8972,1166
44.9662,1128
45.0351,1106
45.104,1180
45.173,1226
45.2419,1182
45.3108,1204
45.3798,1147
45.4487,1140
45.5176,1181
45.5866,1132
45.6555,1122
45.7244,1107
45.7934,1118
45.8623,1201
45.9312,1216
46.0002,1132
46.0691,1122
46.138,1199
46.207,1167
46.2759,1200
46.3449,1151
46.4138,1212
46.4827,1178
46.5517,1132
46.6206,1211
46.6895,1151
46.7585,1174
46.8274,1231
46.8963,1246
46.9653,1187
47.0342,1181
47.1031,1203
47.1721,1226
47.241,1159
47.3099,1230
47.3789,1232
47.4478,1223
47.5167,1189
47.5857,1209
47.6546,1151
47.7235,1223
47.7925,1229
47.8614,1264
47.9303,1201
47.9993,1278
48.0682,1247
48.1371,1249
48.2061,1168
48.275,1170
48.3439,1244
48.4129,1231
48.4818,1261
48.5507,1203
48.6197,1252
48.6886,1279
48.7575,1276
48.8265,1306
48.8954,1267
48.9643,1320
49.0333,1309
49.1022,1300
49.1711,1242
49.2401,1308
49.309,1213
49.3779,1266
49.4469,1286
49.5158,1305
49.5847,1314
49.6537,1324
49.7226,1305
49.7915,1321
49.8605,1355
49.9294,1394
49.9984,1407
50.0673,1589
50.1362,1802
50.2052,2235
50.2741,3741
50.343,9244
50.412,12598
50.4809,7586
50.5498,6958
50.6188,2703
50.6877,1817
50.7566,1598
50.8256,1425
50.8945,1370
50.9634,1384
51.0324,1359
51.1013,1274
51.1702,1328
51.2392,1350
51.3081,1309
51.377,1356
51.446,1311
51.5149,1271
51.5838,1322
51.6528,1248
51.7217,1322
51.7906,1344
51.8596,1275
51.9285,1327
51.9974,1370
52.0664,1320
52.1353,1339
52.2042,1338
52.2732,1324
52.3421,1344
52.411,1341
52.48,1320
52.5489,1325
52.6178,1350
52.6868,1370
52.7557,1342
52.8246,1349
52.8936,1337
52.9625,1357
53.0314,1325
53.1004,1299
53.1693,1365
53.2382,1389
53.3072,1334
53.3761,1315
53.4451,1403
53.514,1302
53.5829,1373
53.6519,1382
53.7208,1342
53.7897,1377
53.8587,1393
53.9276,1345
53.9965,1316
54.0655,1361
54.1344,1364
54.2033,1364
54.2723,1362
54.3412,1317
54.4101,1317
54.4791,1367
54.548,1403
54.6169,1357
54.6859,1434
54.7548,1478
54.8237,1456
54.8927,1373
54.9616,1402
55.0305,1376
55.0995,1404
55.1684,1420
55.2373,1426
55.3063,1335
55.3752,1330
55.4441,1395
55.5131,1394
55.582,1408
55.6509,1376
55.7199,1381
55.7888,1378
55.8577,1434
55.9267,1444
55.9956,1381
56.0645,1420
56.1335,1416
56.2024,1411
56.2713,1440
56.3403,1364
56.4092,1449
56.4781,1384
56.5471,1354
56.616,1407
56.6849,1451
56.7539,1445
56.8228,1419
56.8917,1428
56.9607,1409
57.0296,1484
57.0986,1417
57.1675,1461
57.2364,1460
57.3054,1446
57.3743,1438
57.4432,1455
57.5122,1435
57.5811,1443
57.65,1421
57.719,1421
57.7879,1398
57.8568,1507
57.9258,1442
57.9947,1507
58.0636,1499
58.1326,1484
58.2015,1511
58.2704,1467
58.3394,1412
58.4083,1427
58.4772,1453
58.5462,1409
58.6151,1519
58.684,1465
58.753,1472
58.8219,1507
58.8908,1500
58.9598,1482
59.0287,1494
59.0976,1533
59.1666,1496
59.2355,1514
59.3044,1469
59.3734,1424
59.4423,1546
59.5112,1545
59.5802,1485
59.6491,1543
59.718,1497
59.787,1495
59.8559,1550
59.9248,1452
59.9938,1611
60.0627,1485
60.1316,1566
60.2006,1449
60.2695,1607
60.3384,1589
60.4074,1520
60.4763,1558
60.5453,1604
60.6142,1547
60.6831,1527
60.7521,1544
60.821,1573
60.8899,1550
60.9589,1603
61.0278,1731
61.0967,1591
61.1657,1645
61.2346,1617
61.3035,1624
61.3725,1557
61.4414,1652
61.5103,1694
61.5793,1669
61.6482,1638
61.7171,1597
61.7861,1618
61.855,1610
61.9239,1589
61.9929,1600
62.0618,1592
62.1307,1534
62.1997,1586
62.2686,1602
62.3375,1551
62.4065,1576
62.4754,1620
62.5443,1606
62.6133,1574
62.6822,1630
62.7511,1673
62.8201,1544
62.889,1567
62.9579,1584
63.0269,1563
63.0958,1619
63.1647,1648
63.2337,1613
63.3026,1550
63.3715,1616
63.4405,1572
63.5094,1596
63.5783,1649
63.6473,1635
63.7162,1602
63.7851,1628
63.8541,1642
63.923,1636
63.992,1707
64.0609,1559
64.1298,1602
64.1988,1592
64.2677,1663
64.3366,1642
64.4056,1637
64.4745,1614
64.5434,1653
64.6124,1603
64.6813,1645
64.7502,1620
64.8192,1638
64.8881,1650
64.957,1617
65.026,1615
65.0949,1666
65.1638,1704
65.2328,1613
65.3017,1663
65.3706,1779
65.4396,1673
65.5085,1618
65.5774,1722
65.6464,1691
65.7153,1700
65.7842,1652
65.8532,1686
65.9221,1689
65.991,1689
66.06,1771
66.1289,1696
66.1978,1763
66.2668,1738
66.3357,1686
66.4046,1677
66.4736,1723
66.5425,1771
66.6114,1701
66.6804,1660
66.7493,1660
66.8182,1719
66.8872,1710
66.9561,1754
67.025,1702
67.094,1795
67.1629,1770
67.2318,1744
67.3008,1714
67.3697,1701
67.4386,1784
67.5076,1746
67.5765,1770
67.6455,1610
67.7144,1794
67.7833,1677
67.8523,1783
67.9212,1752
67.9901,1790
68.0591,1766
68.128,1828
68.1969,1670
68.2659,1785
68.3348,1754
68.4037,1742
68.4727,1764
68.5416,1827
68.6105,1775
68.6795,1852
68.7484,1752
68.8173,1761
68.8863,1755
68.9552,1782
69.0241,1800
69.0931,1841
69.162,1874
69.2309,1833
69.2999,1802
69.3688,1822
69.4377,1896
69.5067,1799
69.5756,1798
69.6445,1849
69.7135,1872
69.7824,1731
69.8513,1829
69.9203,1808
69.9892,1801
70.0581,1796
70.1271,1848
70.196,1805
70.2649,1801
70.3339,1818
70.4028,1815
70.4717,1894
70.5407,1811
70.6096,1829
70.6785,1844
70.7475,1903
70.8164,1840
70.8853,1813
70.9543,1833
71.0232,1820
71.0922,1863
71.1611,1826
71.23,1862
71.299,1883
71.3679,1901
71.4368,1866
71.5058,1949
71.5747,1915
71.6436,1931
71.7126,1895
71.7815,1951
71.8504,1972
71.9194,1995
71.9883,1909
72.0572,1994
72.1262,2001
72.1951,1932
72.264,1937
72.333,1985
72.4019,1880
72.4708,1935
72.5398,1922
72.6087,1919
72.6776,1945
72.7466,2037
72.8155,2036
72.8844,1956
72.9534,1946
73.0223,1937
73.0912,1997
73.1602,1973
73.2291,1973
73.298,2021
73.367,2036
73.4359,2030
73.5048,1997
73.5738,2079
73.6427,2108
73.7116,2254
73.7806,2339
73.8495,2521
73.9184,3269
73.9874,5956
74.0563,12392
74.1252,7084
74.1942,4780
74.2631,7067
74.332,5165
74.401,2969
74.4699,2279
74.5388,2222
74.6078,2089
74.6767,2087
74.7457,1963
74.8146,2055
74.8835,1991
74.9525,1969
75.0214,2009
75.0903,2079
75.1593,1983
75.2282,1998
75.2971,2013
75.3661,2121
75.435,2106
75.5039,1974
75.5729,1935
75.6418,2034
75.7107,2021
75.7797,1994
75.8486,1976
75.9175,2024
75.9865,2027
76.0554,2048
76.1243,1989
76.1933,2067
76.2622,2092
76.3311,1976
76.4001,1977
76.469,1986
76.5379,2018
76.6069,2116
76.6758,2034
76.7447,2108
76.8137,1999
76.8826,2062
76.9515,2059
77.0205,2098
77.0894,2061
77.1583,2039
77.2273,2034
77.2962,2036
77.3651,2117
77.4341,2114
77.503,2149
77.5719,2075
77.6409,2066
77.7098,2217
77.7787,2038
77.8477,2068
77.9166,2106
77.9855,2091
78.0545,2059
78.1234,2118
78.1924,2119
78.2613,2110
78.3302,2041
78.3992,1990
78.4681,2118
78.537,2114
78.606,2139
78.6749,2119
78.7438,1997
78.8128,2172
78.8817,2134
78.9506,2116
79.0196,2066
79.0885,2077
79.1574,2064
79.2264,2100
79.2953,2188
79.3642,2175
79.4332,2207
79.5021,2119
79.571,2020
79.64,2175
79.7089,2149
79.7778,2118
79.8468,2159
79.9157,2130
79.9846,2150
80.0536,2102
80.1225,2157
80.1914,2177
80.2604,2203
80.3293,2164
80.3982,2164
80.4672,2144
80.5361,2208
80.605,2161
80.674,2171
80.7429,2178
80.8118,2142
80.8808,2212
80.9497,2114
81.0186,2157
81.0876,2269
81.1565,2256
81.2254,2245
81.2944,2101
81.3633,2209
81.4322,2253
81.5012,2231
81.5701,2160
81.6391,2197
81.708,2200
81.7769,2130
81.8459,2252
81.9148,2104
81.9837,2251
82.0527,2237
82.1216,2202
82.1905,2226
82.2595,2379
82.3284,2178
82.3973,2078
82.4663,2207
82.5352,2222
82.6041,2206
82.6731,2143
82.742,2203
82.8109,2266
82.8799,2186
82.9488,2173
83.0177,2262
83.0867,2245
83.1556,2246
83.2245,2217
83.2935,2319
83.3624,2280
83.4313,2260
83.5003,2264
83.5692,2175
83.6381,2202
83.7071,2180
83.776,2331
83.8449,2297
83.9139,2304
83.9828,2222
84.0517,2358
84.1207,2271
84.1896,2286
84.2585,2300
84.3275,2272
84.3964,2314
84.4653,2294
84.5343,2274
84.6032,2286
84.6721,2262
84.7411,2193
84.81,2243
84.8789,2271
84.9479,2219
85.0168,2297
85.0857,2319
85.1547,2266
85.2236,2286
85.2926,2355
85.3615,2179
85.4304,2261
85.4994,2319
85.5683,2289
85.6372,2247
85.7062,2275
85.7751,2416
85.844,2328
85.913,2259
85.9819,2297
86.0508,2324
86.1198,2369
86.1887,2324
86.2576,2377
86.3266,2373
86.3955,2274
86.4644,2373
86.5334,2389
86.6023,2329
86.6712,2367
86.7402,2423
86.8091,2420
86.878,2388
86.947,2344
87.0159,2380
87.0848,2428
87.1538,2396
87.2227,2437
87.2916,2463
87.3606,2292
87.4295,2286
87.4984,2430
87.5674,2326
87.6363,2378
87.7052,2382
87.7742,2384
87.8431,2415
87.912,2377
87.981,2358
88.0499,2412
88.1188,2409
88.1878,2461
88.2567,2413
88.3256,2393
88.3946,2412
88.4635,2444
88.5324,2383
88.6014,2465
88.6703,2438
88.7393,2341
88.8082,2382
88.8771,2547
88.9461,2514
89.015,2440
89.0839,2519
89.1529,2571
89.2218,2490
89.2907,2542
89.3597,2583
89.4286,2728
89.4975,2760
89.5665,2933
89.6354,3289
89.7043,3869
89.7733,5956
89.8422,12205
89.9111,12149
89.9801,6464
90.049,5336
90.1179,7331
90.1869,7993
90.2558,4681
90.3247,3441
90.3937,2965
90.4626,2844
90.5315,2675
90.6005,2727
90.6694,2577
90.7383,2571
90.8073,2498
90.8762,2469
90.9451,2516
91.0141,2599
91.083,2560
91.1519,2489
91.2209,2535
91.2898,2431
91.3587,2503
91.4277,2485
91.4966,2474
91.5655,2519
91.6345,2599
91.7034,2572
91.7723,2563
91.8413,2500
91.9102,2436
91.9791,2485
92.0481,2538
92.117,2529
92.1859,2520
92.2549,2544
92.3238,2639
92.3928,2480
92.4617,2575
92.5306,2645
92.5996,2565
92.6685,2482
92.7374,2599
92.8064,2488
92.8753,2599
92.9442,2544
93.0132,2570
93.0821,2536
93.151,2562
93.22,2586
93.2889,2455
93.3578,2605
93.4268,2627
93.4957,2589
93.5646,2488
93.6336,2573
93.7025,2556
93.7714,2531
93.8404,2543
93.9093,2526
93.9782,2635
94.0472,2537
94.1161,2564
94.185,2602
94.254,2566
94.3229,2633
94.3918,2586
94.4608,2619
94.5297,2606
94.5986,2611
94.6676,2721
94.7365,2681
94.8054,2699
94.8744,2829
94.9433,3123
95.0122,4099
95.0812,6649
95.1501,4655
95.219,3373
95.288,3284
95.3569,4003
95.4258,4429
95.4948,3172
95.5637,2852
95.6326,2746
95.7016,2546
95.7705,2578
95.8395,2684
95.9084,2609
95.9773,2552
96.0463,2593
96.1152,2583
96.1841,2585
96.2531,2702
96.322,2601
96.3909,2562
96.4599,2631
96.5288,2577
96.5977,2634
96.6667,2578
96.7356,2569
96.8045,2660
96.8735,2620
96.9424,2645
97.0113,2532
97.0803,2534
97.1492,2655
97.2181,2618
97.2871,2672
97.356,2604
97.4249,2722
97.4939,2650
97.5628,2585
97.6317,2609
97.7007,2598
97.7696,2625
97.8385,2699
97.9075,2619
97.9764,2710
98.0453,2569
98.1143,2630
98.1832,2715
98.2521,2649
98.3211,2682
98.39,2690
98.4589,2731
98.5279,2623
98.5968,2684
98.6657,2717
98.7347,2713
98.8036,2641
98.8725,2646
98.9415,2753
99.0104,2695
99.0793,2709
99.1483,2730
99.2172,2674
99.2862,2668
99.3551,2782
99.424,2813
99.493,2717
99.5619,2701
99.6308,2764
99.6998,2713
99.7687,2715
99.8376,2690
99.9066,2605
99.9755,2757
100.044,2670
100.113,2717
100.182,2695
100.251,2654
100.32,2734
100.389,2651
100.458,2617
100.527,2821
100.596,2711
100.665,2719
100.734,2761
100.803,2737
100.872,2669
100.941,2676
101.009,2736
101.078,2739
101.147,2693
101.216,2791
101.285,2668
101.354,2755
101.423,2717
101.492,2714
101.561,2718
101.63,2691
101.699,2716
101.768,2769
101.837,2782
101.906,2688
101.975,2745
102.044,2891
102.112,2757
102.181,2766
102.25,2837
102.319,2806
102.388,2839
102.457,2802
102.526,2769
102.595,2752
102.664,2775
102.733,2757
102.802,2831
102.871,2787
102.94,2733
103.009,2771
103.078,2776
103.146,2828
103.215,2863
103.284,2802
103.353,2773
103.422,2844
103.491,2730
103.56,2819
103.629,2858
103.698,2858
103.767,2807
103.836,2821
103.905,2796
103.974,2790
104.043,2816
104.112,2784
104.18,2765
104.249,2855
104.318,2880
104.387,2863
104.456,2807
104.525,2839
104.594,2752
104.663,2749
104.732,2888
104.801,2881
104.87,2867
104.939,2850
105.008,2828
105.077,2876
105.146,2896
105.214,2836
105.283,2785
105.352,2855
105.421,2836
105.49,2821
105.559,2860
105.628,2851
105.697,2860
105.766,2776
105.835,2893
105.904,2918
105.973,2784
106.042,2980
106.111,2845
106.18,2835
106.248,2930
106.317,2815
106.386,2793
106.455,2819
106.524,2877
106.593,2825
106.662,2801
106.731,2933
106.8,2822
106.869,2878
106.938,2857
107.007,2867
107.076,2801
107.145,2866
107.214,2877
107.282,2846
107.351,2968
107.42,2919
107.489,2818
107.558,2916
107.627,2894
107.696,2862
107.765,2864
107.834,2898
107.903,2917
107.972,2884
108.041,2886
108.11,2929
108.179,2883
108.248,2863
108.317,2812
108.385,2915
108.454,2928
108.523,2900
108.592,2895
108.661,2893
108.73,2957
108.799,2861
108.868,3022
108.937,2912
109.006,2933
109.075,2980
109.144,2923
109.213,2921
109.282,2967
109.351,2920
109.419,2902
109.488,2958
109.557,2915
109.626,2915
109.695,2958
109.764,2822
109.833,2895
109.902,3045
109.971,2893
110.04,2892
110.109,2995
110.178,2962
110.247,2986
110.316,3022
110.385,3000
110.453,2983
110.522,3038
110.591,3007
110.66,2985
110.729,2943
110.798,2976
110.867,2959
110.936,2983
111.005,2974
111.074,2837
111.143,3015
111.212,3000
111.281,2995
111.35,2898
111.419,3019
111.487,3062
111.556,2968
111.625,2992
111.694,2901
111.763,2982
111.832,2979
111.901,3018
111.97,3102
112.039,2966
112.108,2986
112.177,3027
112.246,2921
112.315,3096
112.384,2904
112.453,2981
112.521,2982
112.59,3029
112.659,2998
112.728,3029
112.797,3102
112.866,2966
112.935,3115
113.004,3019
113.073,2942
113.142,3055
113.211,3042
113.28,3011
113.349,2952
113.418,3149
113.487,3022
113.555,3028
113.624,3095
113.693,3019
113.762,3029
113.831,3087
113.9,3046
113.969,3042
114.038,3026
114.107,2952
114.176,2996
114.245,3033
114.314,2968
114.383,2986
114.452,3061
114.521,2963
114.589,2949
114.658,3040
114.727,3072
114.796,3106
114.865,3101
114.934,3056
115.003,3021
115.072,3147
115.141,3127
115.21,3082
115.279,3000
115.348,3092
115.417,2911
115.486,3040
115.555,3130
115.624,3092
115.692,3102
115.761,3119
115.83,3186
115.899,3130
115.968,3023
116.037,3110
116.106,3112
116.175,3152
116.244,3157
116.313,3229
116.382,3144
116.451,3174
116.52,3317
116.589,3307
116.658,3395
116.726,3628
116.795,4119
116.864,4712
116.933,4416
117.002,3792
117.071,3513
117.14,3475
117.209,3661
117.278,3845
117.347,4152
117.416,3761
117.485,3476
117.554,3237
117.623,3258
117.692,3208
117.76,3043
117.829,3131
117.898,3205
117.967,3161
118.036,3088
118.105,3120
118.174,3162
118.243,3183
118.312,3134
118.381,3198
118.45,3141
118.519,3060
118.588,3134
118.657,3053
118.726,3152
118.794,3070
118.863,3105
118.932,3123
119.001,3122
119.07,3189
119.139,3233
119.208,3158
119.277,3101
119.346,3260
119.415,3142
119.484,3299
119.553,3174
119.622,3146
119.691,3225
119.76,3161
119.828,3126
119.897,3221
119.966,3145
120.035,3155
120.104,3211
120.173,3183
120.242,3260
120.311,3184
120.38,3146
120.449,3048
120.518,3145
120.587,3206
120.656,3124
120.725,3172
120.794,3190
120.862,3269
120.931,3230
121,3237
121.069,3129
121.138,3321
121.207,3101
121.276,3253
121.345,3189
121.414,3147
121.483,3186
121.552,3223
121.621,3117
121.69,3224
121.759,3285
121.828,3212
121.896,3119
121.965,3235
122.034,3174
122.103,3139
122.172,3184
122.241,3275
122.31,3248
122.379,3107
122.448,3288
122.517,3258
122.586,3346
122.655,3162
122.724,3228
122.793,3246
122.862,3242
122.931,3289
122.999,3181
123.068,3284
123.137,3231
123.206,3307
123.275,3230
123.344,3332
123.413,3218
123.482,3223
123.551,3148
123.62,3360
123.689,3212
123.758,3221
123.827,3275
123.896,3178
123.965,3237
124.033,3308
124.102,3203
124.171,3327
124.24,3261
124.309,3387
124.378,3261
124.447,3378
124.516,3339
124.585,3313
124.654,3231
124.723,3327
124.792,3172
124.861,3225
124.93,3297
124.999,3367
125.067,3194
125.136,3381
125.205,3356
125.274,3275
125.343,3260
125.412,3265
125.481,3292
125.55,3240
125.619,3260
125.688,3314
125.757,3413
125.826,3171
125.895,3360
125.964,3283
126.033,3315
126.101,3314
126.17,3244
126.239,3369
126.308,3223
126.377,3485
126.446,3280
126.515,3350
126.584,3513
126.653,3389
126.722,3304
126.791,3366
126.86,3285
126.929,3445
126.998,3325
127.067,3411
127.135,3406
127.204,3357
127.273,3449
127.342,3304
127.411,3390
127.48,3428
127.549,3318
127.618,3351
127.687,3419
127.756,3416
127.825,3390
127.894,3382
127.963,3441
128.032,3415
128.101,3336
128.169,3413
128.238,3424
128.307,3481
128.376,3531
128.445,3376
128.514,3430
128.583,3392
128.652,3444
128.721,3377
128.79,3521
128.859,3414
128.928,3427
128.997,3512
129.066,3382
129.135,3367
129.203,3415
129.272,3382
129.341,3498
129.41,3518
129.479,3440
129.548,3454
129.617,3464
129.686,3442
129.755,3531
129.824,3464
129.893,3434
129.962,3605
130.031,3517
130.1,3447
130.169,3409
130.238,3421
130.306,3508
130.375,3437
130.444,3521
130.513,3432
130.582,3407
130.651,3378
130.72,3475
130.789,3461
130.858,3443
130.927,3508
130.996,3520
131.065,3477
131.134,3404
131.203,3376
131.272,3543
131.34,3628
131.409,3519
131.478,3469
131.547,3540
131.616,3467
131.685,3507
131.754,3512
131.823,3489
131.892,3519
131.961,3471
132.03,3616
132.099,3446
132.168,3559
132.237,3541
132.306,3558
132.374,3524
132.443,3416
132.512,3648
132.581,3541
132.65,3517
132.719,3546
132.788,3549
132.857,3533
132.926,3515
132.995,3645
133.064,3554
133.133,3521
133.202,3596
133.271,3499
133.34,3582
133.408,3503
133.477,3550
133.546,3510
133.615,3613
133.684,3545
133.753,3578
133.822,3701
133.891,3673
133.96,3576
134.029,3493
134.098,3502
134.167,3631
134.236,3616
134.305,3622
134.374,3560
134.442,3528
134.511,3598
134.58,3617
134.649,3705
134.718,3573
134.787,3626
134.856,3577
134.925,3587
134.994,3760
135.063,3716
135.132,3731
135.201,3786
135.27,3783
135.339,3754
135.408,3719
135.476,3809
135.545,3807
135.614,3865
135.683,3948
135.752,3741
135.821,3845
135.89,4038
135.959,3999
136.028,4124
136.097,4369
136.166,4748
136.235,5538
136.304,6638
136.373,9077
136.442,11269
136.511,9307
136.579,7242
136.648,5917
136.717,5146
136.786,4717
136.855,4687
136.924,4945
136.993,5339
137.062,6052
137.131,7382
137.2,7185
137.269,6134
137.338,4952
137.407,4480
137.476,4255
137.545,4296
137.613,4038
137.682,3950
137.751,3956
137.82,3898
137.889,3778
137.958,3739
138.027,3750
138.096,3736
138.165,3718
138.234,3705
138.303,3846
138.372,3855
138.441,3792
138.51,3734
138.579,3689
138.647,3789
138.716,3748
138.785,3733
138.854,3838
138.923,3743
138.992,3748
139.061,3729
139.13,3753
139.199,3776
139.268,3918
139.337,3812
139.406,3731
139.475,3574
139.544,3818
139.613,3711
139.681,3720
139.75,3682
139.819,3657
139.888,3670
139.957,3759
139.997,3804