File: data/xrd_Fe_spectra.csv
40.0029,1754
40.0719,1770
40.1408,1825
40.2097,1838
40.2787,1745
40.3476,1805
40.4165,1814
40.4855,1833
40.5544,1806
40.6233,1778
40.6923,1784
40.7612,1829
40.8301,1752
40.8991,1836
40.968,1876
41.0369,1938
41.1059,1938
41.1748,2009
41.2437,2005
41.3127,1925
41.3816,1981
41.4505,1931
41.5195,1904
41.5884,1851
41.6573,1876
41.7263,1813
41.7952,1867
41.8641,1913
41.9331,1916
42.002,1875
42.0709,1871
42.1399,1881
42.2088,1838
42.2777,1843
42.3467,1816
42.4156,1803
42.4845,1909
42.5535,1884
42.6224,1865
42.6913,1869
42.7603,1949
42.8292,1826
42.8982,1941
42.9671,1856
43.036,1988
43.105,1892
43.1739,1923
43.2428,2006
43.3118,1914
43.3807,1920
43.4496,1934
43.5186,2022
43.5875,1938
43.6564,1919
43.7254,1914
43.7943,2019
43.8632,1938
43.9322,2002
44.0011,1972
44.07,2100
44.139,2066
44.2079,1997
44.2768,2041
44.3458,2173
44.4147,2219
44.4836,2634
44.5526,3688
44.6215,7569
44.6904,4451
44.7594,4792
44.8283,2491
44.8972,2092
44.9662,2146
45.0351,2139
45.104,2007
45.173,2005
45.2419,2076
45.3108,2063
45.3798,1975
45.4487,2067
45.5176,1982
45.5866,2017
45.6555,2122
45.7244,2019
45.7934,1945
45.8623,2104
45.9312,2039
46.0002,1934
46.0691,2052
46.138,2086
46.207,2061
46.2759,2104
46.3449,2110
46.4138,2012
46.4827,2131
46.5517,2049
46.6206,2036
46.6895,2062
46.7585,2035
46.8274,2078
46.8963,2062
46.9653,2163
47.0342,2107
47.1031,2034
47.1721,2212
47.241,2054
47.3099,2132
47.3789,2176
47.4478,2107
47.5167,2085
47.5857,2098
47.6546,2144
47.7235,2111
47.7925,2223
47.8614,2157
47.9303,2078
47.9993,2044
48.0682,2091
48.1371,2117
48.2061,2129
48.275,2132
48.3439,2115
48.4129,2123
48.4818,2149
48.5507,2122
48.6197,2142
48.6886,2165
48.7575,2093
48.8265,2121
48.8954,2175
48.9643,2160
49.0333,2078
49.1022,2127
49.1711,2128
49.2401,2166
49.309,2180
49.3779,2156
49.4469,2077
49.5158,2128
49.5847,2214
49.6537,2152
49.7226,2231
49.7915,2111
49.8605,2259
49.9294,2209
49.9984,2245
50.0673,2261
50.1362,2272
50.2052,2238
50.2741,2252
50.343,2253
50.412,2271
50.4809,2340
50.5498,2135
50.6188,2284
50.6877,2281
50.7566,2231
50.8256,2310
50.8945,2214
50.9634,2294
51.0324,2326
51.1013,2342
51.1702,2309
51.2392,2306
51.3081,2258
51.377,2297
51.446,2268
51.5149,2311
51.5838,2380
51.6528,2268
51.7217,2314
51.7906,2322
51.8596,2355
51.9285,2349
51.9974,2348
52.0664,2382
52.1353,2324
52.2042,2396
52.2732,2369
52.3421,2325
52.411,2378
52.48,2369
52.5489,2454
52.6178,2333
52.6868,2467
52.7557,2370
52.8246,2340
52.8936,2448
52.9625,2409
53.0314,2416
53.1004,2355
53.1693,2393
53.2382,2426
53.3072,2313
53.3761,2398
53.4451,2468
53.514,2437
53.5829,2498
53.6519,2334
53.7208,2372
53.7897,2418
53.8587,2427
53.9276,2399
53.9965,2391
54.0655,2475
54.1344,2426
54.2033,2500
54.2723,2461
54.3412,2376
54.4101,2495
54.4791,2460
54.548,2475
54.6169,2412
54.6859,2412
54.7548,2506
54.8237,2443
54.8927,2491
54.9616,2536
55.0305,2539
55.0995,2491
55.1684,2538
55.2373,2479
55.3063,2408
55.3752,2485
55.4441,2511
55.5131,2514
55.582,2443
55.6509,2551
55.7199,2571
55.7888,2584
55.8577,2582
55.9267,2479
55.9956,2562
56.0645,2553
56.1335,2545
56.2024,2639
56.2713,2534
56.3403,2516
56.4092,2564
56.4781,2483
56.5471,2599
56.616,2626
56.6849,2549
56.7539,2532
56.8228,2553
56.8917,2515
56.9607,2482
57.0296,2611
57.0986,2518
57.1675,2493
57.2364,2568
57.3054,2610
57.3743,2609
57.4432,2555
57.5122,2603
57.5811,2565
57.65,2639
57.719,2594
57.7879,2622
57.8568,2580
57.9258,2571
57.9947,2650
58.0636,2549
58.1326,2630
58.2015,2593
58.2704,2575
58.3394,2540
58.4083,2603
58.4772,2643
58.5462,2621
58.6151,2616
58.684,2628
58.753,2590
58.8219,2585
58.8908,2687
58.9598,2574
59.0287,2642
59.0976,2675
59.1666,2655
59.2355,2558
59.3044,2623
59.3734,2697
59.4423,2624
59.5112,2709
59.5802,2643
59.6491,2671
59.718,2618
59.787,2650
59.8559,2630
59.9248,2617
59.9938,2655
60.0627,2711
60.1316,2714
60.2006,2633
60.2695,2616
60.3384,2663
60.4074,2641
60.4763,2620
60.5453,2642
60.6142,2661
60.6831,2778
60.7521,2682
60.821,2750
60.8899,2709
60.9589,2716
61.0278,2720
61.0967,2683
61.1657,2776
61.2346,2722
61.3035,2768
61.3725,2700
61.4414,2800
61.5103,2756
61.5793,2735
61.6482,2878
61.7171,2699
61.7861,2713
61.855,2691
61.9239,2684
61.9929,2817
62.0618,2789
62.1307,2748
62.1997,2789
62.2686,2741
62.3375,2691
62.4065,2821
62.4754,2773
62.5443,2724
62.6133,2856
62.6822,2798
62.7511,2728
62.8201,2759
62.889,2844
62.9579,2782
63.0269,2784
63.0958,2767
63.1647,2793
63.2337,2775
63.3026,2804
63.3715,2801
63.4405,2904
63.5094,2805
63.5783,2788
63.6473,2850
63.7162,2780
63.7851,2906
63.8541,2866
63.923,2824
63.992,2910
64.0609,2765
64.1298,2823
64.1988,2846
64.2677,2780
64.3366,2809
64.4056,2880
64.4745,2858
64.5434,2796
64.6124,2801
64.6813,2881
64.7502,2899
64.8192,2971
64.8881,3097
64.957,3820
65.026,3378
65.0949,3194
65.1638,3343
65.2328,3001
65.3017,3039
65.3706,2956
65.4396,2905
65.5085,2912
65.5774,2843
65.6464,2867
65.7153,2881
65.7842,2977
65.8532,2849
65.9221,2983
65.991,2817
66.06,2877
66.1289,2916
66.1978,3039
66.2668,2917
66.3357,2973
66.4046,2921
66.4736,2877
66.5425,2923
66.6114,3058
66.6804,2886
66.7493,3034
66.8182,2878
66.8872,2879
66.9561,2915
67.025,2935
67.094,3057
67.1629,3058
67.2318,3010
67.3008,3068
67.3697,2948
67.4386,3075
67.5076,3012
67.5765,3046
67.6455,3072
67.7144,3025
67.7833,3017
67.8523,3067
67.9212,3077
67.9901,3032
68.0591,3082
68.128,3167
68.1969,3026
68.2659,3119
68.3348,3064
68.4037,3123
68.4727,2991
68.5416,3029
68.6105,3076
68.6795,3123
68.7484,3067
68.8173,3211
68.8863,3106
68.9552,3164
69.0241,3087
69.0931,3189
69.162,3050
69.2309,3092
69.2999,3039
69.3688,3089
69.4377,3040
69.5067,3101
69.5756,3148
69.6445,3151
69.7135,3059
69.7824,3117
69.8513,3070
69.9203,3114
69.9892,3090
70.0581,3247
70.1271,3155
70.196,3125
70.2649,3142
70.3339,3164
70.4028,3177
70.4717,3062
70.5407,3220
70.6096,3176
70.6785,3075
70.7475,3231
70.8164,3097
70.8853,3075
70.9543,3149
71.0232,3177
71.0922,3197
71.1611,3123
71.23,3227
71.299,3127
71.3679,3204
71.4368,3147
71.5058,3214
71.5747,3263
71.6436,3264
71.7126,3202
71.7815,3189
71.8504,3112
71.9194,3170
71.9883,3191
72.0572,3184
72.1262,3214
72.1951,3255
72.264,3060
72.333,3292
72.4019,3174
72.4708,3234
72.5398,3192
72.6087,3187
72.6776,3207
72.7466,3226
72.8155,3302
72.8844,3211
72.9534,3333
73.0223,3257
73.0912,3273
73.1602,3201
73.2291,3253
73.298,3191
73.367,3206
73.4359,3223
73.5048,3330
73.5738,3289
73.6427,3243
73.7116,3262
73.7806,3305
73.8495,3244
73.9184,3274
73.9874,3259
74.0563,3248
74.1252,3211
74.1942,3294
74.2631,3375
74.332,3238
74.401,3329
74.4699,3168
74.5388,3353
74.6078,3250
74.6767,3222
74.7457,3285
74.8146,3299
74.8835,3277
74.9525,3244
75.0214,3319
75.0903,3299
75.1593,3393
75.2282,3190
75.2971,3366
75.3661,3291
75.435,3424
75.5039,3302
75.5729,3262
75.6418,3239
75.7107,3285
75.7797,3385
75.8486,3378
75.9175,3373
75.9865,3187
76.0554,3493
76.1243,3374
76.1933,3413
76.2622,3339
76.3311,3381
76.4001,3432
76.469,3480
76.5379,3429
76.6069,3495
76.6758,3567
76.7447,3464
76.8137,3378
76.8826,3411
76.9515,3385
77.0205,3424
77.0894,3330
77.1583,3458
77.2273,3423
77.2962,3384
77.3651,3367
77.4341,3580
77.503,3432
77.5719,3433
77.6409,3503
77.7098,3404
77.7787,3525
77.8477,3511
77.9166,3418
77.9855,3489
78.0545,3413
78.1234,3603
78.1924,3479
78.2613,3552
78.3302,3549
78.3992,3555
78.4681,3515
78.537,3470
78.606,3560
78.6749,3431
78.7438,3574
78.8128,3501
78.8817,3551
78.9506,3669
79.0196,3531
79.0885,3527
79.1574,3542
79.2264,3497
79.2953,3462
79.3642,3583
79.4332,3602
79.5021,3595
79.571,3568
79.64,3666
79.7089,3627
79.7778,3605
79.8468,3538
79.9157,3533
79.9846,3558
80.0536,3687
80.1225,3488
80.1914,3527
80.2604,3572
80.3293,3572
80.3982,3684
80.4672,3583
80.5361,3597
80.605,3652
80.674,3740
80.7429,3788
80.8118,3658
80.8808,3667
80.9497,3595
81.0186,3741
81.0876,3762
81.1565,3562
81.2254,3677
81.2944,3682
81.3633,3843
81.4322,3677
81.5012,3835
81.5701,3622
81.6391,3735
81.708,3684
81.7769,3807
81.8459,3700
81.9148,3834
81.9837,3758
82.0527,3816
82.1216,3990
82.1905,4386
82.2595,5784
82.3284,5269
82.3973,4194
82.4663,4344
82.5352,5031
82.6041,4249
82.6731,3965
82.742,3862
82.8109,3854
82.8799,3713
82.9488,3752
83.0177,3832
83.0867,3783
83.1556,3774
83.2245,3789
83.2935,3743
83.3624,3812
83.4313,3825
83.5003,3820
83.5692,3775
83.6381,3801
83.7071,3846
83.776,3828
83.8449,3725
83.9139,3869
83.9828,3762
84.0517,3810
84.1207,3862
84.1896,3734
84.2585,3851
84.3275,3826
84.3964,3745
84.4653,3801
84.5343,3849
84.6032,3752
84.6721,3807
84.7411,3909
84.81,3826
84.8789,3930
84.9479,3888
85.0168,3862
85.0857,3914
85.1547,3880
85.2236,3860
85.2926,3856
85.3615,3785
85.4304,3977
85.4994,3835
85.5683,4054
85.6372,3864
85.7062,3940
85.7751,3893
85.844,3884
85.913,3851
85.9819,3950
86.0508,3884
86.1198,3981
86.1887,3860
86.2576,4001
86.3266,3866
86.3955,3886
86.4644,3877
86.5334,3945
86.6023,3914
86.6712,3861
86.7402,3784
86.8091,4023
86.878,3945
86.947,3864
87.0159,3876
87.0848,3930
87.1538,3836
87.2227,3922
87.2916,3855
87.3606,3894
87.4295,3912
87.4984,3906
87.5674,3987
87.6363,3913
87.7052,3990
87.7742,3905
87.8431,3924
87.912,4056
87.981,4074
88.0499,3913
88.1188,3934
88.1878,3967
88.2567,3946
88.3256,4086
88.3946,4017
88.4635,4028
88.5324,3961
88.6014,3946
88.6703,4035
88.7393,4061
88.8082,3903
88.8771,3930
88.9461,3987
89.015,4011
89.0839,3993
89.1529,4010
89.2218,3948
89.2907,4055
89.3597,3917
89.4286,3895
89.4975,4024
89.5665,4019
89.6354,3965
89.7043,4088
89.7733,4116
89.8422,4064
89.9111,4097
89.9801,4044
90.049,4040
90.1179,4109
90.1869,4032
90.2558,4011
90.3247,4041
90.3937,4066
90.4626,4031
90.5315,4160
90.6005,4098
90.6694,4190
90.7383,4078
90.8073,4042
90.8762,4013
90.9451,4073
91.0141,4071
91.083,4102
91.1519,4122
91.2209,4115
91.2898,4253
91.3587,4030
91.4277,4194
91.4966,4134
91.5655,4196
91.6345,4034
91.7034,4089
91.7723,4158
91.8413,4137
91.9102,4106
91.9791,4130
92.0481,4209
92.117,4165
92.1859,4188
92.2549,4111
92.3238,4127
92.3928,4083
92.4617,4099
92.5306,4136
92.5996,4238
92.6685,4035
92.7374,4193
92.8064,4293
92.8753,4192
92.9442,4148
93.0132,4220
93.0821,4127
93.151,4238
93.22,4199
93.2889,4138
93.3578,4183
93.4268,4204
93.4957,4252
93.5646,4252
93.6336,4244
93.7025,4181
93.7714,4153
93.8404,4264
93.9093,4202
93.9782,4260
94.0472,4126
94.1161,4253
94.185,4277
94.254,4233
94.3229,4190
94.3918,4244
94.4608,4239
94.5297,4297
94.5986,4313
94.6676,4378
94.7365,4245
94.8054,4231
94.8744,4295
94.9433,4155
95.0122,4319
95.0812,4190
95.1501,4131
95.219,4199
95.288,4333
95.3569,4257
95.4258,4238
95.4948,4360
95.5637,4234
95.6326,4364
95.7016,4258
95.7705,4276
95.8395,4191
95.9084,4352
95.9773,4138
96.0463,4253
96.1152,4264
96.1841,4371
96.2531,4399
96.322,4183
96.3909,4356
96.4599,4297
96.5288,4269
96.5977,4264
96.6667,4434
96.7356,4268
96.8045,4375
96.8735,4375
96.9424,4328
97.0113,4208
97.0803,4345
97.1492,4413
97.2181,4431
97.2871,4278
97.356,4238
97.4249,4438
97.4939,4317
97.5628,4380
97.6317,4335
97.7007,4278
97.7696,4330
97.8385,4400
97.9075,4310
97.9764,4241
98.0453,4398
98.1143,4399
98.1832,4270
98.2521,4405
98.3211,4375
98.39,4388
98.4589,4526
98.5279,4496
98.5968,4385
98.6657,4385
98.7347,4554
98.8036,4691
98.8725,5061
98.9415,5024
99.0104,4646
99.0793,4551
99.1483,4566
99.2172,4883
99.2862,4651
99.3551,4413
99.424,4266
99.493,4471
99.5619,4493
99.6308,4346
99.6998,4446
99.7687,4427
99.8376,4328
99.9066,4437
99.9755,4482
100.044,4390
100.113,4514
100.182,4341
100.251,4460
100.32,4506
100.389,4482
100.458,4513
100.527,4524
100.596,4458
100.665,4549
100.734,4422
100.803,4538
100.872,4386
100.941,4474
101.009,4489
101.078,4454
101.147,4519
101.216,4467
101.285,4427
101.354,4460
101.423,4471
101.492,4636
101.561,4430
101.63,4336
101.699,4476
101.768,4448
101.837,4497
101.906,4521
101.975,4445
102.044,4429
102.112,4364
102.181,4393
102.25,4549
102.319,4683
102.388,4511
102.457,4563
102.526,4450
102.595,4474
102.664,4454
102.733,4516
102.802,4536
102.871,4501
102.94,4560
103.009,4670
103.078,4576
103.146,4437
103.215,4541
103.284,4547
103.353,4636
103.422,4579
103.491,4553
103.56,4582
103.629,4568
103.698,4660
103.767,4566
103.836,4637
103.905,4539
103.974,4581
104.043,4547
104.112,4583
104.18,4639
104.249,4710
104.318,4682
104.387,4531
104.456,4706
104.525,4573
104.594,4437
104.663,4655
104.732,4672
104.801,4476
104.87,4739
104.939,4639
105.008,4648
105.077,4639
105.146,4598
105.214,4714
105.283,4716
105.352,4511
105.421,4565
105.49,4563
105.559,4762
105.628,4514
105.697,4683
105.766,4718
105.835,4594
105.904,4587
105.973,4506
106.042,4609
106.111,4550
106.18,4786
106.248,4643
106.317,4548
106.386,4579
106.455,4504
106.524,4651
106.593,4491
106.662,4625
106.731,4710
106.8,4620
106.869,4515
106.938,4571
107.007,4650
107.076,4657
107.145,4638
107.214,4592
107.282,4582
107.351,4669
107.42,4589
107.489,4694
107.558,4747
107.627,4716
107.696,4772
107.765,4581
107.834,4711
107.903,4644
107.972,4723
108.041,4676
108.11,4719
108.179,4753
108.248,4683
108.317,4716
108.385,4773
108.454,4756
108.523,4830
108.592,4584
108.661,4677
108.73,4815
108.799,4701
108.868,4853
108.937,4772
109.006,4591
109.075,4655
109.144,4724
109.213,4594
109.282,4826
109.351,4786
109.419,4746
109.488,4649
109.557,4744
109.626,4866
109.695,4756
109.764,4807
109.833,4751
109.902,4802
109.971,4734
110.04,4855
110.109,4683
110.178,4650
110.247,4751
110.316,4819
110.385,4794
110.453,4902
110.522,4702
110.591,4851
110.66,4857
110.729,4680
110.798,4786
110.867,4683
110.936,4842
111.005,4765
111.074,4997
111.143,4775
111.212,4893
111.281,4789
111.35,4873
111.419,4828
111.487,5036
111.556,4934
111.625,4999
111.694,4860
111.763,5002
111.832,4805
111.901,4876
111.97,4937
112.039,4715
112.108,4838
112.177,4818
112.246,4866
112.315,4765
112.384,4779
112.453,4839
112.521,4957
112.59,4917
112.659,4803
112.728,4853
112.797,4840
112.866,4984
112.935,4888
113.004,4849
113.073,4879
113.142,4764
113.211,4834
113.28,4899
113.349,4852
113.418,4866
113.487,4910
113.555,4921
113.624,4836
113.693,4794
113.762,4826
113.831,4706
113.9,4847
113.969,4791
114.038,4909
114.107,4998
114.176,4802
114.245,4959
114.314,4806
114.383,4937
114.452,5040
114.521,4848
114.589,4984
114.658,4940
114.727,4912
114.796,4855
114.865,4825
114.934,5028
115.003,4927
115.072,4888
115.141,4992
115.21,5018
115.279,4833
115.348,4968
115.417,5075
115.486,5044
115.555,5071
115.624,4969
115.692,5136
115.761,5166
115.83,4973
115.899,5067
115.968,5113
116.037,5077
116.106,5128
116.175,5214
116.244,5463
116.313,6307
116.382,6101
116.451,5355
116.52,5252
116.589,5144
116.658,5193
116.726,5285
116.795,5634
116.864,5388
116.933,5274
117.002,5237
117.071,5013
117.14,4990
117.209,5036
117.278,5015
117.347,5189
117.416,4917
117.485,4992
117.554,4968
117.623,4943
117.692,5029
117.76,5127
117.829,5066
117.898,4991
117.967,4955
118.036,5072
118.105,5000
118.174,5077
118.243,5136
118.312,5024
118.381,5110
118.45,5116
118.519,5051
118.588,5087
118.657,5158
118.726,5037
118.794,5049
118.863,5045
118.932,5184
119.001,5113
119.07,5219
119.139,5129
119.208,5183
119.277,5103
119.346,4948
119.415,5059
119.484,5139
119.553,5055
119.622,5083
119.691,5156
119.76,5003
119.828,5032
119.897,5170
119.966,5094
120.035,5046
120.104,5133
120.173,5045
120.242,5167
120.311,5242
120.38,5237
120.449,5107
120.518,5308
120.587,5226
120.656,5271
120.725,5130
120.794,5234
120.862,5101
120.931,5127
121,5254
121.069,5227
121.138,5284
121.207,5150
121.276,5144
121.345,5214
121.414,5302
121.483,5353
121.552,5138
121.621,5298
121.69,5332
121.759,5244
121.828,5241
121.896,5223
121.965,5286
122.034,5232
122.103,5302
122.172,5264
122.241,5131
122.31,5298
122.379,5254
122.448,5207
122.517,5223
122.586,5353
122.655,5141
122.724,5197
122.793,5255
122.862,5255
122.931,5266
122.999,5285
123.068,5420
123.137,5239
123.206,5217
123.275,5188
123.344,5298
123.413,5281
123.482,5359
123.551,5286
123.62,5431
123.689,5288
123.758,5258
123.827,5213
123.896,5370
123.965,5351
124.033,5422
124.102,5323
124.171,5245
124.24,5242
124.309,5410
124.378,5327
124.447,5352
124.516,5367
124.585,5301
124.654,5220
124.723,5261
124.792,5311
124.861,5311
124.93,5237
124.999,5341
125.067,5274
125.136,5376
125.205,5390
125.274,5315
125.343,5449
125.412,5393
125.481,5343
125.55,5324
125.619,5351
125.688,5161
125.757,5447
125.826,5463
125.895,5136
125.964,5315
126.033,5441
126.101,5422
126.17,5537
126.239,5236
126.308,5248
126.377,5299
126.446,5487
126.515,5381
126.584,5281
126.653,5539
126.722,5276
126.791,5430
126.86,5499
126.929,5362
126.998,5347
127.067,5396
127.135,5496
127.204,5386
127.273,5418
127.342,5396
127.411,5297
127.48,5267
127.549,5485
127.618,5449
127.687,5524
127.756,5476
127.825,5490
127.894,5495
127.963,5492
128.032,5295
128.101,5343
128.169,5448
128.238,5449
128.307,5553
128.376,5515
128.445,5464
128.514,5362
128.583,5533
128.652,5487
128.721,5569
128.79,5601
128.859,5567
128.928,5523
128.997,5531
129.066,5606
129.135,5547
129.203,5655
129.272,5588
129.341,5541
129.41,5555
129.479,5510
129.548,5540
129.617,5480
129.686,5552
129.755,5606
129.824,5542
129.893,5565
129.962,5563
130.031,5547
130.1,5601
130.169,5432
130.238,5559
130.306,5646
130.375,5557
130.444,5573
130.513,5651
130.582,5616
130.651,5492
130.72,5533
130.789,5530
130.858,5787
130.927,5635
130.996,5654
131.065,5631
131.134,5722
131.203,5588
131.272,5636
131.34,5676
131.409,5604
131.478,5618
131.547,5689
131.616,5671
131.685,5695
131.754,5689
131.823,5670
131.892,5666
131.961,5568
132.03,5759
132.099,5552
132.168,5841
132.237,5694
132.306,5551
132.374,5624
132.443,5588
132.512,5632
132.581,5674
132.65,5474
132.719,5642
132.788,5566
132.857,5720
132.926,5608
132.995,5622
133.064,5735
133.133,5648
133.202,5497
133.271,5583
133.34,5612
133.408,5594
133.477,5593
133.546,5624
133.615,5496
133.684,5737
133.753,5640
133.822,5633
133.891,5606
133.96,5653
134.029,5540
134.098,5664
134.167,5846
134.236,5758
134.305,5682
134.374,5643
134.442,5738
134.511,5701
134.58,5659
134.649,5588
134.718,5620
134.787,5635
134.856,5662
134.925,5723
134.994,5652
135.063,5771
135.132,5742
135.201,5768
135.27,5622
135.339,5634
135.408,5629
135.476,5665
135.545,5758
135.614,5709
135.683,5644
135.752,5808
135.821,5839
135.89,5759
135.959,5720
136.028,5734
136.097,5837
136.166,5798
136.235,5785
136.304,5840
136.373,5738
136.442,5586
136.511,5682
136.579,5710
136.648,5741
136.717,5792
136.786,5760
136.855,5841
136.924,5910
136.993,5922
137.062,6217
137.131,6233
137.2,5928
137.269,5832
137.338,5883
137.407,5808
137.476,5831
137.545,5942
137.613,5813
137.682,5859
137.751,5820
137.82,5875
137.889,5962
137.958,5973
138.027,5798
138.096,5923
138.165,5815
138.234,5871
138.303,5716
138.372,5845
138.441,5807
138.51,5754
138.579,5722
138.647,5823
138.716,5691
138.785,5771
138.854,5839
138.923,5746
138.992,5739
139.061,5647
139.13,5887
139.199,5886
139.268,5597
139.337,5815
139.406,5855
139.475,5782
139.544,5705
139.613,5662
139.681,5821
139.75,5761
139.819,5873
139.888,5786
139.957,5908
139.997,5852